aX,aY,aZ,gX,gY,gZ
1.468,0.479,-1.028,57.312,82.336,-93.811
1.339,0.285,-1.470,86.304,117.188,-132.812
1.173,-0.034,-1.860,119.690,143.494,-169.983
0.975,-0.442,-2.260,148.010,160.217,-199.341
0.761,-0.594,-2.724,170.105,170.715,-207.703
0.457,-0.803,-3.234,181.030,170.410,-205.200
0.130,-0.928,-3.848,180.542,159.851,-193.604
-0.087,-0.744,-4.000,174.377,126.404,-167.175
-0.266,-0.453,-4.000,159.790,61.768,-143.066
-0.454,-0.262,-4.000,128.296,-24.780,-132.080
-0.568,-0.241,-3.614,83.252,-116.699,-129.700
-0.620,-0.579,-1.931,29.236,-211.060,-129.822
-0.683,-1.178,-0.256,-30.273,-271.484,-130.371
-0.746,-1.844,0.988,-72.632,-295.227,-118.286
-0.744,-2.237,2.637,-72.205,-332.886,-85.815
-0.569,-0.937,3.821,43.945,-340.698,-32.349
-0.389,0.203,3.455,196.838,-271.851,-30.884
-0.516,-0.910,2.893,228.943,-230.957,-125.244
-0.443,-1.733,2.998,189.026,-260.193,-161.926
-0.106,-1.931,3.217,123.596,-292.603,-116.333
0.331,-2.052,3.592,31.128,-304.626,-50.415
0.751,-1.632,4.000,-47.913,-300.842,32.104
1.118,-0.551,4.000,-86.304,-263.306,111.450
1.340,0.652,3.998,-81.177,-187.561,162.903
1.308,1.008,3.378,-78.186,-105.408,154.053
1.171,1.339,2.734,-68.787,-36.987,124.573
1.138,1.640,2.305,-44.067,8.606,93.872
0.883,1.621,2.035,-20.142,46.204,40.222
0.553,0.970,1.214,-8.362,99.182,-34.546
0.243,0.091,0.394,10.315,130.493,-95.581
0.067,-0.872,-0.208,8.484,126.526,-122.620
0.018,-1.472,-0.401,-12.939,95.398,-104.614
-0.038,-1.522,-0.295,-36.072,55.420,-53.711
0.009,-1.097,-0.362,-38.330,32.898,-3.601
0.108,-0.992,-0.331,-42.053,16.235,19.409
0.258,-1.109,-0.174,-55.115,-4.700,27.649
0.459,-1.065,0.048,-61.523,-20.630,48.340
0.651,-0.812,0.408,-67.627,-33.875,75.317
0.792,-0.425,0.706,-64.941,-37.354,96.252
0.848,-0.012,0.806,-52.246,-26.611,102.539
0.877,0.282,0.770,-31.372,-12.024,92.773
0.865,0.345,0.778,-14.160,-4.333,70.251
0.815,0.222,0.757,-4.150,0.000,42.236
0.704,0.082,0.623,-2.380,9.888,16.052
0.700,-0.180,0.316,3.662,19.287,-5.859
0.670,-0.382,0.223,6.348,19.409,-18.860
0.708,-0.696,0.149,-1.770,14.954,-23.254
0.777,-0.711,0.294,0.549,0.854,-13.428
0.861,-0.705,0.436,-1.709,-7.019,-2.136
0.913,-0.635,0.492,-7.202,-6.042,8.545
0.952,-0.536,0.500,-12.146,-3.784,18.250
0.980,-0.452,0.504,-16.479,-2.136,25.269
1.004,-0.215,0.553,-12.878,-1.892,30.212
1.006,-0.014,0.570,-4.150,1.099,27.466
0.961,-0.002,0.489,4.089,6.775,13.916
0.934,-0.096,0.351,13.977,11.353,-0.732
0.925,-0.284,0.328,17.700,8.484,-9.888
0.936,-0.375,0.411,15.503,1.953,-10.864
0.954,-0.406,0.466,13.916,-0.427,-6.348
0.970,-0.477,0.517,10.803,-0.488,-3.662
0.972,-0.431,0.555,8.362,0.916,2.014
0.977,-0.313,0.553,8.606,4.578,8.728
0.973,-0.173,0.609,9.583,6.348,11.536
0.953,-0.038,0.610,12.390,10.559,9.766
0.931,-0.031,0.525,12.207,18.250,2.930
0.910,-0.133,0.487,8.728,21.179,-5.371
0.902,-0.185,0.545,4.578,19.226,-8.179
0.900,-0.210,0.581,-1.038,20.081,-7.935
0.888,-0.229,0.580,-1.099,23.315,-7.324
0.872,-0.242,0.580,2.502,24.963,-6.470
0.865,-0.225,0.621,3.845,25.513,-4.333
0.862,-0.204,0.691,3.052,25.513,-1.587
0.854,-0.223,0.748,0.061,27.588,0.610
0.839,-0.272,0.798,0.122,29.724,2.319
0.818,-0.346,0.864,4.517,30.518,5.005
0.791,-0.507,0.954,11.841,29.480,8.911
0.774,-0.627,1.105,16.418,26.245,18.799
0.743,-0.677,1.272,17.639,23.437,37.109
0.664,-0.752,1.421,9.766,22.583,59.082
0.608,-0.674,1.557,-3.052,21.484,85.266
0.511,-0.287,1.664,-17.395,22.034,113.220
0.455,0.018,1.694,-33.508,25.879,120.667
0.381,0.038,1.856,-46.204,23.682,103.333
0.284,-0.114,1.973,-55.054,25.024,77.576
0.223,-0.236,1.962,-54.871,36.987,59.937
0.182,-0.311,1.841,-52.673,50.049,50.476
0.191,-0.244,1.588,-51.758,63.416,45.715
0.194,-0.151,1.358,-51.575,71.899,40.039
0.229,-0.156,1.252,-53.833,71.106,25.208
0.319,-0.358,1.154,-66.895,75.073,5.737
0.335,-0.365,0.951,-69.336,89.844,-1.160
0.309,-0.369,0.425,-56.824,114.136,2.380
0.331,-0.476,-0.061,-57.373,121.887,2.014
0.420,-0.426,-0.238,-56.458,105.347,9.766
0.512,-0.379,-0.147,-40.527,80.444,17.395
0.627,-0.434,-0.207,-31.433,71.106,17.822
0.778,-0.442,-0.310,-23.865,71.228,20.386
0.873,-0.350,-0.332,-16.479,68.787,26.489
0.900,-0.219,-0.522,-5.737,75.745,32.410
0.937,-0.015,-0.864,11.475,84.473,38.696
1.025,0.264,-1.008,18.188,78.613,45.227
1.083,0.607,-0.938,19.470,62.378,47.180
1.091,0.746,-0.914,19.836,56.458,33.142
1.042,0.564,-1.084,25.513,59.631,3.967
1.032,0.187,-1.208,37.720,54.382,-24.170
1.074,-0.156,-1.118,41.138,37.048,-39.917
1.124,-0.457,-0.903,45.715,20.935,-41.443
1.125,-0.622,-0.845,44.800,21.851,-33.813
1.115,-0.526,-0.974,49.133,31.982,-15.198
1.123,-0.493,-1.070,45.166,30.823,-0.305
1.099,-0.407,-1.025,31.982,16.724,13.123
1.119,-0.088,-0.924,25.146,2.563,30.029
1.081,0.128,-0.813,21.667,-5.371,32.593
1.238,0.094,-0.689,13.306,-9.705,17.273
1.218,-0.222,-0.400,-1.099,-11.536,-0.977
1.181,-0.357,-0.505,26.184,-3.357,-0.549
1.212,-0.346,-0.512,29.663,-0.671,7.019
1.215,-0.378,-0.280,7.324,-11.292,10.376
1.216,-0.348,-0.174,-11.047,-14.465,17.944

2.199,0.627,0.088,-24.353,43.762,-32.227
2.334,0.371,-0.162,-21.362,94.971,-67.200
2.247,0.111,-0.522,-23.254,160.156,-98.999
1.687,0.036,-1.142,-1.648,244.080,-124.573
0.804,-0.039,-2.856,87.891,352.478,-147.888
0.160,-0.097,-4.000,153.320,427.429,-164.734
-0.464,-0.792,-4.000,166.992,433.289,-193.359
-0.881,-1.099,-4.000,163.635,376.038,-185.974
-1.044,-0.779,-4.000,168.274,236.450,-138.428
-1.282,-0.587,-4.000,120.605,48.157,-97.168
-1.756,-0.254,-4.000,24.414,-117.981,-56.824
-2.259,0.560,-4.000,-60.303,-238.708,-11.719
-2.605,0.108,-2.922,-119.629,-361.572,-8.362
-2.860,-1.480,0.868,-222.168,-535.339,-54.810
-2.545,-1.814,4.000,-159.668,-706.909,-75.989
-1.613,1.293,4.000,263.306,-700.256,-43.274
-1.905,2.935,4.000,624.084,-277.832,-131.958
-1.524,-3.103,1.668,420.349,87.036,-425.293
0.013,-4.000,4.000,19.531,-326.538,-450.378
0.955,-3.861,4.000,-254.211,-931.580,-37.659
0.510,2.254,4.000,-183.411,-628.235,315.735
-1.358,3.794,4.000,-136.353,260.315,251.160
-1.891,1.490,2.120,-135.986,759.033,25.940
-1.715,-0.389,0.926,-137.817,559.326,-44.678
-1.651,-1.230,3.917,-207.642,187.378,-15.625
-1.530,-1.502,3.995,-235.596,160.950,11.414
-1.280,-1.541,1.770,-222.595,303.833,30.029
-0.948,-1.584,0.201,-199.768,316.467,48.828
-0.612,-1.333,0.132,-194.153,220.154,73.853
-0.357,-0.915,0.363,-175.049,148.071,92.224
-0.088,-0.643,-0.100,-137.085,146.973,92.896
0.124,-0.491,-0.878,-111.023,162.048,75.623
0.338,-0.322,-1.340,-131.836,156.433,59.387
0.521,-0.679,-1.493,-71.594,127.380,42.297
0.613,-0.757,-1.599,-52.917,107.117,44.739
0.610,-0.949,-1.590,-69.092,98.816,47.729
0.536,-1.118,-1.759,-87.158,95.947,48.462
0.398,-1.066,-2.093,-70.007,99.976,52.002
0.256,-1.132,-2.468,-49.683,101.563,51.758
0.248,-0.885,-2.840,-20.264,93.994,60.913
0.300,-0.403,-3.159,29.724,78.857,70.557
0.304,-0.137,-3.542,71.289,69.214,56.458
0.310,-0.189,-3.935,104.614,58.289,21.973
0.344,-0.441,-3.982,126.465,26.733,-12.939
0.429,-0.790,-3.792,121.155,-16.235,-39.307
0.622,-1.266,-3.353,111.877,-66.467,-50.720
0.873,-1.553,-2.551,104.797,-125.305,-40.283
1.163,-1.591,-1.474,82.581,-178.772,-8.850
1.516,-1.500,-0.345,63.232,-217.102,27.405
1.778,-1.213,0.884,48.462,-239.014,63.416
1.933,-0.831,1.719,32.471,-217.834,91.675
1.960,-0.201,1.977,23.926,-154.480,109.314
1.878,0.351,1.904,27.405,-84.534,108.887
1.722,0.619,1.665,51.392,-26.062,88.135
1.516,0.533,1.248,81.970,23.376,59.998
1.294,0.487,0.694,98.450,65.308,38.513
1.073,0.344,0.099,84.717,91.370,23.010
0.900,0.214,-0.413,67.200,97.290,13.367
0.743,0.116,-0.682,49.744,83.862,9.033
0.644,0.053,-0.788,53.101,59.570,9.949
0.610,-0.014,-0.763,60.730,33.875,10.864
0.608,-0.153,-0.614,47.729,10.132,7.629
0.643,-0.189,-0.442,21.362,-4.089,5.188
0.686,-0.194,-0.357,0.793,-8.484,4.272
0.743,-0.241,-0.309,-21.057,-9.705,0.244
0.784,-0.288,-0.274,-35.461,-11.475,-3.235
0.810,-0.253,-0.219,-23.437,-15.198,-0.610
0.848,-0.146,-0.155,-13.245,-17.944,3.967
0.825,-0.049,-0.111,-12.451,-17.944,5.371
0.937,0.014,-0.051,-17.273,-17.517,2.502
0.956,-0.004,0.086,-20.386,-18.799,-1.343
0.963,0.001,0.104,-0.549,-16.602,-1.831
1.008,0.024,0.179,-1.770,-13.489,-3.601
1.026,-0.109,0.198,-19.592,-8.606,-11.658
1.032,-0.163,0.130,-26.062,-2.075,-14.465
1.043,-0.157,0.042,-29.907,1.892,-11.353
1.044,-0.218,-0.004,-30.090,1.282,-10.315
1.045,-0.239,0.008,-24.170,-2.991,-6.714
1.034,-0.241,0.040,-18.738,-6.042,-3.479
1.020,-0.197,0.028,-19.531,-4.456,-0.916
1.007,-0.144,0.017,-24.353,-1.770,-0.488
1.002,-0.125,0.040,-21.423,-0.977,-1.953
0.996,-0.176,0.061,-12.817,0.244,-4.150
0.991,-0.194,0.035,-5.737,3.906,-4.578
0.990,-0.187,0.012,-1.953,6.042,-3.723
0.988,-0.202,0.026,-2.502,5.310,-3.235
0.989,-0.208,0.034,-2.075,4.822,-1.343
0.986,-0.208,0.044,-4.517,4.639,0.916
0.980,-0.174,0.045,-6.409,5.676,3.418
0.974,-0.110,0.051,-4.883,6.287,4.395
0.965,-0.080,0.040,-2.075,7.812,1.892
0.952,-0.086,0.007,0.916,9.827,-2.136
0.940,-0.133,-0.051,3.357,11.047,-5.493
0.935,-0.164,-0.091,-0.793,9.460,-7.507
0.939,-0.196,-0.055,-10.498,4.822,-8.057
0.939,-0.225,-0.034,-14.465,1.709,-7.812
0.948,-0.231,-0.041,-14.160,1.587,-6.165
0.958,-0.245,-0.014,-12.024,-0.549,-5.249
0.965,-0.226,0.054,-8.179,-3.296,-3.601
0.968,-0.187,0.086,-4.211,-2.258,-1.343
0.968,-0.166,0.050,-0.671,1.709,-0.366
0.964,-0.175,0.028,-1.099,3.357,-0.732
0.969,-0.160,0.050,-5.798,2.319,-0.183
0.967,-0.167,0.064,-9.033,2.136,0.305
0.962,-0.163,0.031,-11.169,4.578,0.000
0.954,-0.160,0.011,-9.399,5.310,-0.549
0.951,-0.177,0.029,-7.385,3.906,-2.380
0.943,-0.196,0.001,-4.578,4.517,-3.357
0.938,-0.208,-0.072,-5.310,6.165,-3.174
0.936,-0.228,-0.080,-9.094,3.113,-2.075
0.945,-0.205,-0.018,-11.108,-2.319,0.305
0.959,-0.174,0.027,-9.644,-4.395,1.892
0.968,-0.196,0.047,-9.705,-3.601,0.610
0.973,-0.221,0.091,-8.789,-3.540,-0.366
0.975,-0.220,0.119,-4.639,-2.380,-0.183
0.970,-0.247,0.092,-0.366,1.648,-0.610
0.965,-0.288,0.039,1.892,5.554,-0.549
0.964,-0.302,0.015,2.502,6.592,1.587
0.961,-0.288,0.003,7.751,6.165,4.211

1.353,-0.908,-0.845,47.119,3.662,-30.579
1.474,-0.932,-1.125,50.110,7.812,-30.273
1.662,-0.852,-1.427,47.546,9.399,-24.841
1.897,-0.686,-1.785,44.678,7.202,-17.456
2.140,-0.658,-2.117,42.786,-0.183,-12.024
2.325,-0.717,-2.255,34.607,-16.418,-1.892
2.526,-0.621,-2.056,19.287,-41.260,28.381
2.552,-0.240,-1.820,5.981,-55.176,75.073
2.516,0.744,-1.696,11.353,-46.936,124.268
2.485,2.280,-1.391,38.330,-38.574,156.189
2.414,3.684,-0.864,60.974,-28.748,147.156
2.179,4.000,-0.181,76.965,-10.437,98.328
1.649,4.000,-0.195,69.702,36.499,18.738
1.011,4.000,-0.868,43.213,88.013,-82.336
0.469,4.000,-1.053,11.475,76.538,-175.415
0.111,4.000,-0.417,-18.066,10.376,-229.187
-0.324,4.000,0.510,-103.333,-58.350,-247.192
-0.780,3.865,1.812,-224.548,-119.812,-241.150
-1.315,3.407,3.756,-339.966,-208.984,-236.145
-1.770,2.802,4.000,-398.193,-287.354,-246.399
-2.052,2.517,4.000,-360.779,-303.284,-256.042
-1.853,2.526,4.000,-302.979,-260.986,-278.137
-1.978,2.386,4.000,-259.766,-119.019,-346.680
-2.240,1.700,4.000,-182.861,90.271,-433.472
-2.322,0.286,3.988,-113.098,191.406,-514.099
-2.196,-1.291,3.448,-69.519,170.898,-541.260
-2.083,-2.101,3.643,-71.899,126.404,-492.493
-2.029,-2.237,3.202,-87.952,144.226,-411.682
-2.077,-2.416,2.118,-101.440,198.181,-350.647
-2.045,-2.555,1.326,-106.140,210.937,-305.603
-1.925,-2.834,1.132,-101.196,181.152,-263.672
-1.788,-3.319,1.201,-125.000,153.442,-228.455
-1.690,-3.542,1.108,-154.907,147.217,-180.115
-1.543,-3.330,0.793,-169.373,150.635,-116.577
-1.413,-2.956,0.768,-168.396,137.146,-59.753
-1.320,-2.650,0.671,-158.569,123.047,-22.888
-1.193,-2.462,0.442,-138.977,119.690,-4.089
-1.057,-2.298,0.568,-97.656,98.877,9.277
-0.943,-2.083,0.669,-40.283,83.130,23.132
-0.830,-1.797,0.516,12.329,85.632,32.227
-0.703,-1.568,0.281,71.777,85.938,30.884
-0.630,-1.540,0.128,114.197,76.416,22.644
-0.485,-1.652,-0.211,113.586,71.045,16.174
-0.370,-1.804,-0.086,95.459,51.575,17.578
-0.263,-1.785,-0.009,75.195,36.926,41.870
-0.126,-1.550,-0.125,78.003,36.804,74.158
-0.024,-1.214,-0.176,92.102,29.968,98.022
0.113,-1.115,-0.403,112.000,24.231,100.037
0.288,-1.030,-0.438,111.389,5.005,96.436
0.466,-0.950,0.012,88.074,-31.433,92.041
0.583,-0.888,0.222,86.304,-42.725,87.830
0.609,-0.879,0.067,88.196,-26.306,79.651
0.626,-0.772,-0.181,94.482,-14.160,73.547
0.677,-0.896,-0.255,102.295,-22.522,64.270
0.693,-1.067,-0.201,88.867,-37.048,57.922
0.717,-0.880,-0.262,81.055,-41.931,69.031
0.768,-0.524,-0.289,88.318,-46.387,82.520
0.828,-0.426,-0.064,78.735,-60.974,78.979
0.839,-0.431,0.143,62.927,-67.200,68.726
0.861,-0.454,0.098,54.504,-55.481,61.768
0.860,-0.557,0.007,50.476,-45.166,55.420
0.837,-0.652,-0.023,46.326,-42.786,52.002
0.818,-0.673,-0.110,41.199,-38.086,53.162
0.782,-0.673,-0.220,38.452,-34.912,54.810
0.767,-0.734,-0.280,36.499,-37.781,54.016
0.774,-0.799,-0.255,31.982,-44.434,54.321
0.785,-0.731,-0.173,30.823,-50.903,59.998
0.837,-0.684,-0.047,34.119,-55.115,65.247
0.866,-0.707,0.137,34.790,-56.763,66.223
0.887,-0.588,0.206,36.743,-49.316,69.641
0.916,-0.373,0.179,50.171,-38.208,72.327
0.946,-0.232,0.209,63.049,-33.081,67.200
0.961,-0.236,0.217,66.345,-28.564,55.481
0.965,-0.319,0.151,67.749,-22.461,45.166
0.947,-0.379,0.070,66.895,-19.653,40.405
0.950,-0.431,-0.007,62.805,-20.813,39.001
0.968,-0.567,0.045,53.467,-27.344,37.964
0.973,-0.655,0.158,40.283,-32.898,41.748
0.971,-0.692,0.185,33.142,-30.396,49.316
0.967,-0.730,0.174,26.245,-23.987,56.030
0.952,-0.722,0.167,29.602,-19.897,62.866
0.940,-0.649,0.146,34.241,-16.724,69.885
0.934,-0.526,0.106,38.879,-13.489,74.829
0.945,-0.444,0.101,41.870,-13.000,75.317
0.954,-0.448,0.184,40.039,-15.991,71.228
0.957,-0.478,0.241,39.124,-15.625,67.200
0.947,-0.538,0.197,40.100,-10.132,65.735
0.920,-0.655,0.177,36.560,-6.348,66.711
0.891,-0.660,0.167,31.006,-4.944,73.730
0.871,-0.517,0.120,31.738,-3.723,84.900
0.849,-0.407,0.088,30.884,-3.845,90.820
0.827,-0.388,0.039,27.832,-4.639,90.454
0.816,-0.332,0.015,22.766,-6.226,90.210
0.820,-0.251,0.036,18.005,-9.949,89.539
0.832,-0.196,0.089,13.794,-13.428,85.327
0.841,-0.170,0.134,14.832,-13.977,77.942
0.848,-0.206,0.147,18.921,-11.047,68.359
0.854,-0.242,0.151,22.461,-7.446,59.570
0.865,-0.288,0.141,23.682,-4.456,52.246
0.876,-0.326,0.152,20.813,-2.808,46.997
0.886,-0.361,0.173,16.846,-2.075,44.189
0.892,-0.344,0.157,12.817,-0.366,42.786
0.897,-0.312,0.104,12.085,0.732,41.199
0.906,-0.318,0.081,12.939,-1.587,37.292
0.922,-0.321,0.128,11.536,-5.554,33.386
0.933,-0.319,0.185,9.949,-7.629,29.480
0.947,-0.281,0.221,10.254,-6.592,25.330
0.957,-0.279,0.234,9.216,-3.540,19.104
0.958,-0.329,0.235,9.277,-0.244,11.414
0.956,-0.380,0.234,9.216,3.235,5.737
0.950,-0.425,0.205,7.751,7.019,2.563
0.945,-0.475,0.169,7.385,9.338,1.465
0.940,-0.491,0.155,9.888,8.728,3.052
0.938,-0.445,0.152,11.475,7.507,6.714
0.933,-0.404,0.147,9.399,6.775,8.850
0.932,-0.379,0.150,7.202,5.737,8.484
0.924,-0.396,0.162,6.531,5.188,7.324
0.912,-0.419,0.164,7.019,5.554,6.714
0.899,-0.457,0.152,3.784,6.714,8.057

1.438,-0.601,-0.693,64.636,101.868,-95.642
1.426,-0.475,-0.814,73.120,121.765,-100.403
1.191,-0.411,-1.099,80.078,152.222,-115.051
0.991,-0.415,-1.670,95.581,190.247,-134.949
0.770,-0.485,-2.315,117.188,214.478,-149.902
0.542,-0.508,-2.576,122.986,202.454,-161.621
0.245,-0.758,-2.866,124.329,184.509,-171.204
-0.027,-0.998,-3.356,116.333,168.457,-172.729
-0.242,-0.910,-3.700,119.873,125.977,-157.654
-0.387,-0.722,-3.551,126.343,46.814,-139.221
-0.580,-0.956,-3.031,108.704,-43.213,-135.132
-0.605,-1.219,-2.194,64.453,-129.150,-121.826
-0.637,-1.274,-0.861,18.616,-212.280,-84.656
-0.668,-1.244,0.387,-19.104,-259.277,-41.199
-0.531,-0.926,1.417,-32.532,-263.550,10.010
-0.239,-0.292,2.742,-5.737,-262.878,61.523
0.095,0.784,3.799,28.198,-241.211,83.618
0.357,1.361,3.464,92.285,-166.077,41.199
0.826,0.843,3.156,130.188,-126.831,-59.387
1.169,-1.054,4.000,85.693,-215.576,-153.198
1.382,-2.709,4.000,27.588,-275.513,-172.241
1.465,-2.230,4.000,13.489,-162.659,-81.726
1.273,-0.677,4.000,-15.503,33.936,22.827
0.894,-0.187,3.580,-51.636,110.901,28.809
0.655,-0.195,2.693,-77.637,116.577,4.028
0.366,-0.212,1.871,-64.758,132.324,-8.240
0.236,-0.463,1.134,-68.726,143.127,-18.494
0.207,-0.859,0.943,-66.284,121.521,-21.667
0.229,-1.030,1.044,-71.289,92.529,-7.202
0.239,-1.046,0.848,-82.520,92.468,13.794
0.252,-0.956,0.528,-80.627,100.586,33.875
0.307,-0.805,0.307,-75.012,98.389,47.180
0.362,-0.654,0.150,-80.505,96.619,47.913
0.401,-0.630,-0.065,-75.134,100.464,35.278
0.410,-0.673,-0.331,-50.476,106.018,16.724
0.438,-0.757,-0.558,-16.907,106.140,-0.366
0.426,-0.995,-0.729,14.832,100.769,-13.611
0.444,-1.111,-0.896,37.903,94.482,-13.672
0.450,-1.113,-1.124,44.861,89.233,1.526
0.459,-1.045,-1.317,20.935,80.383,23.376
0.505,-0.822,-1.341,-8.606,61.218,49.866
0.568,-0.496,-1.279,-37.598,41.260,71.289
0.602,-0.335,-1.256,-69.153,28.442,75.195
0.613,-0.351,-1.268,-95.886,19.165,66.956
0.636,-0.340,-1.210,-101.440,6.409,62.256
0.665,-0.335,-1.063,-92.651,-7.568,57.617
0.677,-0.346,-0.957,-82.153,-14.038,49.255
0.684,-0.337,-0.895,-68.970,-16.418,40.649
0.731,-0.267,-0.782,-45.715,-19.958,32.532
0.777,-0.330,-0.627,-29.419,-23.254,21.057
0.797,-0.542,-0.556,-21.790,-19.653,10.254
0.826,-0.590,-0.530,-16.968,-14.099,10.620
0.869,-0.570,-0.501,-10.498,-12.695,16.113
0.902,-0.598,-0.407,-6.775,-15.076,16.479
0.918,-0.662,-0.354,-6.409,-14.160,15.015
0.927,-0.703,-0.325,-15.991,-10.315,15.015
0.940,-0.718,-0.311,-24.658,-8.850,16.724
0.953,-0.765,-0.294,-30.945,-10.254,16.846
0.992,-0.792,-0.296,-33.325,-11.414,16.174
0.959,-0.886,-0.182,-27.954,-13.184,14.099
0.979,-0.892,-0.130,-16.663,-12.695,16.113
0.988,-0.822,-0.134,-3.418,-8.179,22.095
0.974,-0.704,-0.144,4.150,-5.066,27.283
0.962,-0.562,-0.170,8.728,-2.869,28.809
0.944,-0.470,-0.184,10.559,-1.282,27.222
0.932,-0.378,-0.194,11.597,-0.916,24.536
0.938,-0.290,-0.165,9.949,-1.343,21.240
0.942,-0.295,-0.099,6.958,-3.174,13.794
0.942,-0.344,-0.067,7.019,-2.747,4.944
0.937,-0.428,-0.052,5.005,-0.427,-3.235
0.930,-0.560,-0.020,2.747,1.038,-8.911
0.922,-0.650,0.015,-3.113,3.479,-10.315
0.920,-0.657,0.039,-2.563,6.775,-7.507
0.898,-0.738,0.047,2.258,9.583,-6.104
0.868,-0.746,0.020,6.409,13.367,-2.808
0.848,-0.664,-0.057,10.010,17.456,4.456
0.823,-0.626,-0.092,10.498,17.212,9.155
0.797,-0.597,-0.125,8.118,15.503,12.390
0.778,-0.542,-0.173,6.531,14.160,15.625
0.773,-0.516,-0.162,4.883,9.888,16.724
0.772,-0.501,-0.093,1.953,4.211,16.174
0.769,-0.478,-0.088,1.221,3.723,14.954
0.767,-0.450,-0.119,2.930,5.249,12.268
0.770,-0.504,-0.094,4.822,2.930,7.507
0.773,-0.567,-0.045,5.188,0.000,4.333
0.774,-0.573,-0.048,4.883,0.305,5.554
0.782,-0.546,-0.065,1.831,0.916,8.057
0.801,-0.549,-0.026,-0.610,-1.587,8.911
0.811,-0.569,-0.000,-1.709,-3.662,8.850
0.820,-0.531,-0.008,-3.235,-3.113,11.353
0.822,-0.501,-0.024,-6.836,-2.808,12.756
0.826,-0.478,-0.018,-6.409,-3.601,12.756
0.827,-0.472,-0.011,-2.991,-4.272,11.414
0.820,-0.467,-0.020,0.671,-3.540,9.460
0.820,-0.456,-0.067,4.822,-1.648,7.996
0.824,-0.504,-0.054,8.362,-2.747,5.859
0.837,-0.518,-0.014,10.132,-4.883,5.676
0.843,-0.519,-0.005,9.705,-4.578,7.568
0.857,-0.573,-0.008,11.169,-3.906,7.996
0.862,-0.596,0.019,9.888,-4.944,10.132
0.869,-0.574,0.017,6.531,-3.906,13.611
0.865,-0.557,-0.002,6.409,-2.380,15.991
0.862,-0.561,-0.007,7.202,-1.953,17.395
0.865,-0.547,0.004,8.667,-2.319,20.325
0.866,-0.493,-0.008,11.719,-1.282,23.071
0.869,-0.415,-0.032,17.090,-0.610,23.743
0.872,-0.395,-0.042,22.400,-1.648,20.508
0.876,-0.384,-0.006,26.123,-3.906,16.235
0.879,-0.400,-0.021,27.893,-3.357,12.756
0.882,-0.425,-0.041,25.024,-2.319,10.315
0.890,-0.434,-0.019,22.034,-3.906,9.766
0.894,-0.468,0.005,21.484,-5.737,9.460
0.900,-0.502,0.017,21.484,-6.165,10.437
0.912,-0.519,0.043,16.968,-5.920,13.000
0.927,-0.526,0.082,10.864,-5.493,15.564
0.932,-0.503,0.103,8.179,-4.028,17.944
0.935,-0.490,0.096,3.357,-0.549,19.226
0.936,-0.480,0.082,-0.122,2.747,19.775
0.932,-0.442,0.076,0.732,4.883,20.569

0.943,-0.780,-1.478,73.792,70.496,-83.496
0.950,-1.027,-1.743,77.820,66.101,-91.858
0.947,-1.188,-1.762,66.772,46.997,-87.585
0.965,-1.028,-1.767,53.467,35.461,-70.068
0.981,-0.752,-1.943,47.058,36.804,-55.908
0.995,-0.584,-2.114,42.236,38.452,-58.289
0.979,-0.575,-2.309,49.133,37.231,-70.801
0.923,-0.604,-2.446,61.829,32.898,-84.290
0.849,-0.664,-2.546,70.068,23.560,-94.055
0.751,-0.781,-2.630,76.721,10.315,-100.281
0.606,-0.909,-2.663,75.195,-8.484,-99.182
0.383,-0.996,-2.661,66.528,-31.311,-89.844
0.229,-1.059,-2.641,60.913,-60.547,-71.716
-0.018,-1.017,-2.419,51.758,-98.633,-47.119
-0.254,-1.040,-2.193,23.560,-132.507,-27.344
-0.586,-1.183,-2.023,8.606,-168.030,-7.690
-0.948,-0.916,-1.602,2.563,-215.454,26.917
-1.204,-0.585,-0.878,-10.864,-267.395,59.143
-1.482,-0.436,-0.040,1.709,-310.547,66.345
-1.620,-0.069,0.902,44.373,-347.351,68.237
-1.634,0.367,2.039,70.435,-380.493,62.866
-1.821,0.495,2.929,65.369,-386.597,27.893
-2.013,0.274,3.138,60.303,-350.647,-20.935
-2.126,-0.383,3.327,71.472,-335.449,-69.580
-2.013,-0.680,3.528,81.299,-354.736,-96.375
-1.517,-0.164,3.420,95.276,-366.272,-97.412
-0.820,-0.222,3.830,93.018,-386.475,-120.911
-0.038,-1.465,4.000,76.172,-413.391,-166.992
0.885,-2.689,4.000,53.162,-391.296,-171.448
1.727,-2.973,4.000,41.992,-304.565,-92.712
2.078,-2.189,4.000,5.310,-199.280,32.166
1.768,-1.040,4.000,-51.819,-93.506,135.254
1.173,0.245,4.000,-95.398,46.021,184.570
0.627,1.231,2.491,-100.342,186.707,180.237
0.293,1.250,1.565,-67.993,231.995,115.295
-0.003,0.405,1.824,-56.335,203.552,26.306
-0.227,-0.480,2.055,-33.630,195.679,-36.804
-0.359,-0.732,1.570,2.563,231.689,-50.598
-0.482,-1.082,1.090,15.076,252.563,-54.443
-0.562,-1.593,0.984,6.775,240.845,-51.025
-0.616,-1.924,1.017,-12.329,219.116,-23.560
-0.616,-1.806,0.941,-42.114,203.796,20.264
-0.585,-1.457,0.745,-69.031,190.613,61.707
-0.521,-1.147,0.686,-92.468,170.532,86.365
-0.363,-0.813,0.759,-103.455,145.813,99.487
-0.274,-0.425,0.886,-119.629,127.136,102.600
-0.116,-0.062,0.967,-103.516,118.164,95.276
0.055,0.249,0.822,-87.158,119.324,78.674
0.181,0.053,0.870,-114.441,117.859,37.842
0.306,-0.114,0.919,-121.399,111.755,8.728
0.364,0.040,0.798,-115.173,118.408,-5.371
0.399,-0.094,0.564,-111.633,123.169,-26.733
0.546,-0.139,0.349,-96.924,117.371,-45.898
0.656,-0.227,0.269,-108.582,109.131,-61.707
0.714,-0.284,0.180,-62.134,95.032,-68.909
0.864,-0.067,0.291,-29.663,85.571,-62.073
0.868,-0.101,0.290,-54.077,98.389,-81.482
0.854,-0.269,0.069,-38.818,120.300,-103.638
0.801,-0.236,-0.173,-6.653,134.644,-112.244
0.710,-0.532,-0.303,0.183,137.085,-127.014
0.640,-0.941,-0.459,0.122,137.939,-136.169
0.656,-1.224,-0.677,-4.211,135.315,-123.047
0.666,-1.268,-0.825,-15.076,125.183,-95.703
0.691,-1.104,-0.870,-26.611,112.976,-62.988
0.676,-0.924,-0.993,-33.691,106.079,-37.842
0.647,-0.872,-1.133,-39.856,97.900,-23.132
0.642,-0.851,-1.099,-51.819,79.956,-9.399
0.623,-0.736,-0.992,-59.082,60.303,8.179
0.574,-0.574,-0.982,-53.467,50.964,24.658
0.521,-0.441,-1.020,-48.828,48.340,32.349
0.482,-0.306,-1.022,-48.584,45.837,31.738
0.436,-0.195,-1.030,-40.894,43.457,22.095
0.402,-0.264,-1.139,-22.217,43.518,1.038
0.398,-0.615,-1.231,-3.052,37.781,-25.635
0.382,-1.055,-1.186,9.155,24.536,-42.297
0.377,-1.359,-1.176,20.447,14.282,-37.781
0.411,-1.452,-1.234,32.349,6.348,-14.221
0.445,-1.469,-1.231,29.419,-9.888,17.029
0.508,-1.432,-1.133,7.507,-31.616,50.537
0.594,-1.191,-0.904,-15.442,-56.763,86.304
0.715,-0.799,-0.596,-33.630,-76.782,113.831
0.841,-0.419,-0.326,-38.391,-86.121,120.911
0.943,-0.270,-0.158,-31.311,-82.947,102.722
1.016,-0.364,-0.040,-16.541,-72.388,67.993
1.095,-0.554,0.034,4.456,-58.533,33.936
1.140,-0.824,0.088,27.588,-45.471,6.470
1.164,-1.081,0.105,38.757,-31.677,-7.629
1.183,-1.231,0.025,37.415,-18.188,-6.653
1.183,-1.270,-0.020,31.982,-12.390,4.150
1.185,-1.202,0.042,19.348,-15.015,19.531
1.182,-1.074,0.138,5.005,-17.029,33.936
1.162,-0.924,0.205,-3.235,-13.428,43.457
1.124,-0.779,0.170,-7.507,-4.089,47.424
1.079,-0.704,0.109,-13.977,4.639,45.776
1.043,-0.610,0.113,-16.052,9.583,42.419
1.007,-0.551,0.112,-14.038,14.893,37.659
0.957,-0.506,0.062,-15.564,23.254,29.785
0.908,-0.425,-0.011,-9.399,30.823,21.118
0.860,-0.366,-0.062,1.587,34.912,10.315
0.818,-0.366,-0.122,10.376,37.231,-2.808
0.781,-0.434,-0.172,15.198,37.109,-15.076
0.749,-0.541,-0.165,14.526,32.898,-24.048
0.725,-0.609,-0.113,10.864,27.832,-26.855
0.693,-0.679,-0.085,8.728,25.696,-26.611
0.661,-0.729,-0.118,7.141,25.452,-24.780
0.646,-0.725,-0.105,9.766,21.851,-20.996
0.638,-0.739,-0.083,13.245,17.395,-18.127
0.631,-0.745,-0.088,16.235,15.076,-15.991
0.621,-0.734,-0.109,18.127,12.146,-12.756
0.621,-0.712,-0.085,14.404,6.531,-9.827
0.620,-0.684,-0.030,13.428,0.061,-6.531
0.625,-0.684,0.009,13.611,-3.479,-4.761
0.625,-0.679,-0.010,13.000,-4.700,-3.357
0.639,-0.686,-0.020,13.794,-7.996,-0.916
0.655,-0.715,0.041,15.686,-15.930,1.892
0.667,-0.727,0.053,17.578,-20.142,6.226
0.682,-0.724,0.035,14.771,-21.179,12.268
0.697,-0.710,0.051,8.545,-23.804,18.127
0.714,-0.674,0.073,3.357,-27.527,23.804

0.741,-1.157,-0.908,95.459,-15.137,-29.907
0.756,-1.198,-1.013,97.412,-20.630,-30.457
0.740,-1.257,-1.141,93.323,-28.442,-26.550
0.746,-1.316,-1.214,82.520,-40.588,-18.494
0.766,-1.264,-1.137,67.810,-60.486,-2.686
0.791,-1.078,-1.025,56.213,-77.637,15.564
0.800,-0.912,-1.024,46.021,-85.388,27.710
0.827,-0.747,-1.017,41.748,-92.285,33.020
0.855,-0.542,-0.907,51.025,-104.492,33.691
0.895,-0.291,-0.795,67.505,-112.976,25.146
1.012,-0.062,-0.641,96.252,-117.371,6.104
1.095,-0.054,-0.637,131.287,-117.004,-22.888
1.195,-0.215,-0.739,155.579,-112.671,-52.124
1.328,-0.467,-0.822,151.855,-116.821,-63.904
1.501,-0.726,-0.640,134.583,-138.672,-53.650
1.669,-0.722,-0.259,107.910,-163.574,-23.193
1.883,-0.066,0.031,101.868,-172.607,19.653
2.153,0.946,0.524,124.695,-177.246,45.654
2.490,1.594,1.480,148.621,-189.636,28.564
2.794,1.699,2.797,171.631,-189.453,-13.245
2.937,1.458,3.930,169.250,-147.339,-54.016
2.802,0.717,4.000,126.465,-65.613,-78.369
2.493,0.424,4.000,52.917,34.790,-68.420
2.222,1.070,3.657,5.859,110.352,-20.569
1.913,1.563,3.613,-10.559,139.771,-2.441
1.597,1.824,3.702,-23.071,158.875,-20.142
1.258,1.875,3.657,-19.104,187.744,-55.542
0.905,1.706,3.538,-12.085,219.727,-101.563
0.507,1.495,3.469,-14.404,248.413,-145.264
0.054,1.107,3.384,-13.184,276.611,-189.575
-0.469,0.551,3.212,-11.230,310.913,-236.145
-1.087,-0.121,2.687,-6.348,357.910,-275.635
-1.828,-1.036,1.940,-8.423,402.100,-304.932
-2.530,-1.891,0.754,-4.150,436.279,-308.289
-2.951,-2.165,-0.984,31.189,451.172,-268.982
-2.875,-1.934,-2.626,33.447,405.884,-205.261
-2.438,-1.659,-3.056,20.935,273.376,-154.236
-1.941,-2.017,-1.858,-6.653,91.736,-129.211
-1.556,-2.694,-0.448,-55.603,-33.142,-103.882
-1.287,-2.952,0.205,-111.023,-62.500,-55.908
-1.096,-2.826,0.494,-121.948,-56.519,-0.122
-0.966,-2.680,0.842,-121.765,-55.664,43.213
-0.848,-2.404,1.080,-125.916,-48.035,81.055
-0.734,-1.758,1.193,-128.601,-26.978,121.094
-0.670,-1.354,1.267,-132.996,0.244,139.832
-0.673,-1.208,1.494,-137.329,23.865,134.583
-0.762,-1.111,1.584,-133.362,55.481,119.934
-0.833,-1.015,1.200,-115.417,101.929,97.839
-0.840,-1.069,0.806,-94.177,131.409,69.153
-0.810,-1.392,0.723,-70.923,127.808,43.274
-0.729,-1.563,0.827,-54.993,114.136,34.973
-0.620,-1.467,0.937,-55.542,107.056,48.828
-0.480,-1.269,1.070,-58.472,100.830,63.904
-0.286,-0.934,1.234,-59.143,97.107,74.280
-0.134,-0.522,1.240,-54.993,106.873,72.449
-0.110,-0.363,1.017,-52.307,132.324,49.255
-0.160,-0.591,0.698,-44.189,155.884,8.911
-0.241,-0.884,0.417,-23.804,167.480,-26.489
-0.293,-1.066,0.069,0.854,175.354,-46.387
-0.319,-1.311,-0.298,24.353,175.842,-55.786
-0.308,-1.542,-0.626,52.002,165.344,-54.077
-0.209,-1.665,-0.972,62.622,146.362,-38.269
0.004,-1.592,-1.018,22.400,119.873,-10.254
-0.072,-1.347,-0.783,-48.645,98.145,19.470
0.046,-1.005,-0.610,-92.346,74.768,50.232
0.018,-0.457,-0.609,-15.930,65.613,83.313
0.199,-0.061,-0.833,23.132,71.045,78.674
0.152,0.014,-0.755,21.790,62.805,44.373
0.124,-0.045,-0.924,19.165,66.833,1.831
0.108,-0.336,-1.296,15.808,74.219,-38.513
0.137,-0.776,-1.509,5.188,61.890,-69.153
0.131,-1.050,-1.506,-0.061,37.598,-76.172
0.170,-1.120,-1.594,17.029,18.738,-65.186
0.198,-1.299,-1.599,32.898,-2.563,-53.955
0.219,-1.586,-1.479,27.771,-27.588,-45.837
0.245,-1.721,-1.356,18.799,-46.631,-25.024
0.271,-1.562,-1.299,21.179,-59.326,7.629
0.307,-1.380,-1.194,14.771,-72.937,35.095
0.362,-1.230,-1.027,10.681,-90.759,53.101
0.440,-1.178,-0.806,6.409,-109.070,65.796
0.485,-1.195,-0.604,-9.216,-120.117,74.646
0.535,-1.116,-0.456,-21.484,-124.023,86.243
0.594,-0.934,-0.299,-25.024,-128.967,97.534
0.654,-0.811,-0.074,-13.672,-135.681,101.685
0.710,-0.799,0.168,-1.831,-137.390,97.778
0.732,-0.847,0.258,16.174,-126.282,94.116
0.703,-0.900,0.152,31.311,-105.713,94.482
0.663,-0.740,-0.098,35.706,-85.266,102.783
0.656,-0.458,-0.273,46.753,-80.627,111.755
0.672,-0.301,-0.231,46.326,-91.248,108.887
0.699,-0.265,-0.129,39.063,-98.267,98.999
0.732,-0.272,-0.162,39.612,-94.788,92.651
0.763,-0.277,-0.221,38.879,-89.417,89.905
0.780,-0.335,-0.207,41.138,-90.210,87.891
0.803,-0.379,-0.178,42.908,-90.942,87.646
0.850,-0.423,-0.123,37.598,-91.492,87.769
0.885,-0.444,-0.039,36.621,-92.957,88.989
0.904,-0.442,-0.010,38.086,-89.600,88.989
0.910,-0.403,-0.100,40.283,-82.581,89.600
0.915,-0.337,-0.106,41.748,-80.017,89.722
0.941,-0.113,-0.151,42.847,-76.660,89.172
0.979,0.064,-0.219,41.504,-71.106,83.862
1.003,0.080,-0.212,40.649,-70.862,69.458
1.027,-0.023,-0.168,38.391,-71.716,53.040
1.051,-0.129,-0.115,33.691,-70.435,40.588
1.072,-0.213,-0.056,32.410,-67.993,32.104
1.102,-0.306,0.020,32.288,-65.308,25.208
1.130,-0.379,0.071,33.447,-60.730,19.165
1.156,-0.429,0.110,35.095,-54.443,14.160
1.172,-0.528,0.137,36.499,-48.096,9.033
1.179,-0.643,0.141,39.185,-41.382,5.310
1.164,-0.741,0.117,38.513,-35.461,6.226
1.143,-0.752,0.100,30.090,-29.907,10.925
1.125,-0.725,0.113,20.386,-25.513,16.846
1.107,-0.644,0.165,13.977,-20.203,20.325
1.067,-0.630,0.129,12.268,-11.719,18.921
1.032,-0.652,0.096,4.944,-3.418,15.808
1.007,-0.620,0.090,0.732,1.770,15.259
0.987,-0.601,0.110,3.479,6.287,13.977

0.922,-1.161,-0.764,40.710,54.688,-58.472
0.909,-1.308,-0.988,46.875,58.899,-64.697
0.938,-1.403,-1.088,53.162,53.833,-66.833
1.013,-1.449,-1.043,53.528,41.931,-62.439
1.100,-1.373,-0.939,56.335,32.227,-52.734
1.196,-1.105,-0.810,58.350,28.687,-38.391
1.227,-0.873,-0.791,61.096,37.170,-33.997
1.179,-0.700,-0.926,69.824,58.411,-39.429
1.062,-0.505,-1.237,85.205,86.609,-50.476
0.950,-0.336,-1.860,121.399,118.896,-67.932
0.780,-0.434,-2.608,160.095,143.982,-92.163
0.637,-0.691,-3.297,186.096,148.987,-109.924
0.649,-0.704,-3.468,200.256,118.042,-102.539
0.787,-0.418,-2.986,211.487,64.758,-81.909
0.927,0.055,-2.418,214.355,27.100,-64.575
1.011,0.487,-2.195,213.440,24.109,-66.467
0.963,0.706,-2.129,205.933,32.471,-89.661
0.810,0.527,-1.918,183.960,27.466,-126.953
0.575,0.215,-1.498,153.687,13.184,-159.851
0.235,-0.049,-1.239,133.911,9.949,-176.270
-0.095,-0.226,-1.094,114.136,13.733,-179.626
-0.404,-0.337,-0.964,87.585,5.981,-175.049
-0.668,-0.353,-0.681,82.397,-17.212,-168.762
-0.883,-0.253,-0.232,94.421,-53.650,-165.955
-1.107,-0.238,0.284,106.873,-93.384,-175.293
-1.385,-0.154,0.786,106.506,-126.343,-192.322
-1.636,-0.297,1.208,107.727,-149.597,-221.252
-1.921,-0.809,1.419,100.403,-169.556,-266.541
-2.128,-1.400,1.325,71.350,-188.110,-306.030
-2.085,-2.233,1.628,27.405,-235.901,-326.721
-1.504,-3.048,2.706,-25.818,-312.012,-325.317
-0.450,-3.294,3.981,-67.017,-360.779,-295.227
0.373,-4.000,4.000,-63.660,-329.285,-279.846
1.001,-4.000,3.529,-49.683,-234.741,-262.451
1.439,-4.000,3.351,-25.513,-174.561,-142.944
1.446,-4.000,3.966,-22.156,-139.526,59.448
0.970,-2.782,3.902,-37.842,-46.875,218.933
0.392,-1.144,2.756,-50.232,89.905,287.842
0.016,0.014,1.932,-45.105,172.852,298.889
-0.367,0.202,1.928,-33.203,186.401,256.348
-0.777,-0.358,1.914,-29.846,198.364,187.683
-1.070,-0.573,1.462,-14.648,221.313,145.813
-1.225,-0.411,0.865,-6.042,234.985,127.930
-1.328,-0.520,0.436,-3.052,225.525,103.821
-1.365,-0.788,0.197,-9.094,197.021,80.750
-1.310,-1.078,-0.014,-15.320,164.551,73.975
-1.179,-1.255,-0.187,-47.302,132.202,80.322
-0.959,-1.126,-0.168,-88.257,96.619,101.074
-0.675,-0.749,-0.083,-123.657,67.871,122.375
-0.381,-0.410,-0.051,-141.602,53.772,127.930
-0.146,-0.320,-0.032,-148.560,49.438,113.037
0.048,-0.358,-0.077,-153.870,54.260,87.891
0.163,-0.347,-0.240,-150.757,66.772,62.744
0.212,-0.492,-0.528,-136.353,78.064,36.255
0.316,-0.771,-0.742,-130.432,77.087,12.329
0.350,-1.005,-0.758,-134.583,64.453,1.465
0.365,-1.161,-0.780,-145.142,54.626,-0.793
0.371,-1.171,-0.974,-145.691,55.420,4.272
0.386,-1.294,-1.059,-134.033,49.927,8.972
0.663,-1.181,-1.331,-152.405,37.109,177.429
0.527,-0.452,-1.258,-186.462,40.466,201.050
0.561,-0.301,-1.273,-130.615,22.888,193.481
0.650,0.299,-1.210,1.648,15.747,179.565
0.733,0.057,-1.330,67.871,15.442,118.713
0.752,-0.139,-1.259,91.675,6.165,61.035
0.785,-0.623,-1.088,76.050,-6.104,18.066
0.809,-1.069,-0.984,75.439,-14.771,2.625
0.826,-1.339,-0.926,51.697,-18.860,18.250
0.699,-1.396,-1.034,19.958,-23.254,57.007
0.749,-0.974,-0.995,-8.606,-32.227,109.680
0.738,-0.691,-1.040,-26.123,-39.612,141.479
0.797,-0.324,-0.932,-38.086,-55.054,161.072
0.897,0.027,-0.589,-44.983,-77.148,165.649
0.966,0.132,-0.296,-48.950,-84.412,147.339
1.008,0.020,-0.180,-47.119,-71.716,113.464
1.015,-0.205,-0.229,-31.067,-49.988,79.285
0.961,-0.516,-0.351,-8.667,-31.555,53.284
0.943,-0.574,-0.521,18.494,-19.592,45.471
0.926,-0.472,-0.626,40.466,-18.127,49.744
0.926,-0.492,-0.653,45.654,-24.597,51.697
0.933,-0.532,-0.604,35.583,-33.936,58.167
0.979,-0.512,-0.421,15.747,-44.983,69.885
1.067,-0.413,-0.310,-3.723,-51.208,80.872
0.934,-0.263,0.014,-14.709,-48.523,85.693
1.029,-0.310,-0.196,7.751,-29.602,79.163
1.020,-0.501,-0.216,17.822,-21.545,65.857
1.018,-0.601,-0.125,6.042,-26.245,58.777
1.010,-0.662,-0.153,-0.488,-20.508,55.847
1.006,-0.607,-0.172,4.944,-14.160,56.030
1.001,-0.494,-0.195,14.404,-8.545,54.932
1.005,-0.402,-0.224,14.404,-2.563,49.622
1.010,-0.365,-0.237,12.329,1.648,41.748
0.996,-0.412,-0.188,-2.258,3.174,32.104
0.985,-0.446,-0.191,-21.790,8.606,23.010
0.938,-0.519,-0.243,-35.217,15.930,14.282
0.893,-0.674,-0.297,-37.842,20.325,4.944
0.861,-0.830,-0.304,-25.330,19.531,0.488
0.849,-0.878,-0.283,-7.690,16.724,2.747
0.853,-0.758,-0.302,8.850,16.357,9.460
0.856,-0.659,-0.384,17.822,16.602,11.658
0.871,-0.603,-0.364,18.921,10.925,9.705
0.877,-0.503,-0.281,17.822,4.150,8.057
0.888,-0.395,-0.268,19.043,3.357,6.287
0.885,-0.391,-0.279,14.648,4.395,1.343
0.881,-0.477,-0.251,9.644,2.319,-3.479
0.887,-0.564,-0.167,6.165,-1.831,-3.784
0.894,-0.589,-0.090,2.930,-3.601,0.000
0.896,-0.541,-0.078,-0.488,-1.404,6.104
0.904,-0.522,-0.096,-5.493,1.587,10.132
0.913,-0.537,-0.057,-9.705,0.671,13.184
0.923,-0.455,-0.015,-13.855,0.061,18.616
0.931,-0.401,-0.008,-18.616,2.747,21.362
0.931,-0.406,-0.013,-23.437,5.554,20.264
0.913,-0.387,-0.042,-22.888,7.812,20.264
0.898,-0.391,-0.051,-22.339,9.155,20.081
0.876,-0.400,-0.052,-19.287,9.338,19.470
0.856,-0.426,-0.091,-18.311,11.108,18.433
0.853,-0.405,-0.108,-19.775,11.841,19.043
0.849,-0.431,-0.080,-23.010,10.864,19.043

0.886,-0.627,-1.225,131.042,56.458,-160.156
0.866,-0.475,-1.338,141.052,55.908,-176.514
0.840,-0.394,-1.540,147.583,61.401,-199.707
0.780,-0.571,-1.876,152.283,71.899,-229.004
0.747,-0.805,-2.353,150.696,82.092,-249.084
0.773,-1.010,-3.028,146.118,85.266,-249.390
0.844,-1.241,-3.545,133.606,68.359,-233.826
0.935,-1.346,-3.629,109.558,30.273,-202.209
1.023,-1.379,-3.278,86.792,-15.198,-159.302
1.107,-1.043,-2.820,68.298,-43.152,-110.962
1.084,-0.422,-2.676,60.730,-42.908,-66.711
0.952,0.032,-2.844,54.565,-30.884,-51.208
0.727,0.345,-2.877,59.998,-35.767,-58.655
0.468,0.700,-2.715,82.642,-55.359,-77.087
0.201,1.063,-2.375,117.920,-77.576,-104.004
-0.127,1.585,-2.162,145.081,-86.609,-138.611
-0.512,2.434,-2.030,156.677,-81.909,-180.176
-1.073,3.365,-2.005,143.860,-76.477,-242.981
-1.791,3.682,-1.136,106.018,-101.990,-344.055
-2.726,2.888,0.898,33.936,-170.593,-480.225
-3.697,0.870,3.233,-14.771,-238.647,-628.235
-4.000,-1.733,4.000,14.282,-262.573,-732.849
-3.990,-3.188,4.000,96.436,-231.018,-736.572
-3.234,-2.131,3.903,163.269,-148.743,-638.245
-2.752,-2.307,2.865,91.431,-109.924,-595.520
-2.183,-4.000,2.910,-37.415,-157.104,-647.400
-1.432,-4.000,3.062,-67.200,-210.510,-654.358
-0.605,-4.000,2.474,-82.275,-188.721,-575.928
0.202,-4.000,2.356,-132.263,-138.306,-335.022
0.422,-4.000,3.705,-150.940,-118.225,42.297
0.077,-1.803,4.000,-80.505,-92.285,336.548
-0.556,1.645,4.000,64.758,29.480,422.607
-1.317,3.379,1.902,166.443,256.836,352.478
-1.827,3.287,-1.740,178.406,398.193,205.811
-2.089,2.127,-3.353,139.282,314.819,73.364
-1.910,1.045,-2.486,69.885,115.540,12.756
-1.610,0.296,-1.182,0.427,-11.780,8.118
-1.411,-0.381,-0.954,-48.706,-22.400,13.123
-1.261,-0.920,-0.933,-77.271,-20.569,26.428
-1.136,-1.081,-0.604,-76.843,-53.406,50.232
-1.160,-1.283,-0.127,-64.209,-81.421,70.923
-1.109,-1.438,-0.107,-57.312,-66.895,89.783
-1.083,-1.714,-0.293,-49.622,-40.344,108.765
-1.096,-1.986,-0.234,-51.270,-40.588,131.958
-1.064,-1.959,-0.025,-49.927,-52.368,169.128
-1.012,-1.835,0.178,-48.767,-54.749,208.069
-1.023,-1.739,0.367,-56.030,-50.537,238.098
-1.100,-1.592,0.431,-55.420,-42.053,261.047
-1.108,-1.290,0.439,-42.786,-37.720,277.710
-1.097,-1.187,0.549,-24.170,-49.561,276.672
-1.005,-1.229,1.001,-18.066,-74.646,261.536
-0.895,-1.150,1.469,-16.052,-81.055,252.441
-0.758,-1.082,1.650,-13.855,-53.223,238.525
-0.645,-1.165,1.628,-27.344,-13.000,215.454
-0.569,-1.481,1.577,-52.124,17.700,191.895
-0.514,-1.786,1.449,-94.727,43.091,185.669
-0.460,-1.828,1.211,-135.620,64.209,202.209
-0.275,-1.415,1.005,-173.950,73.975,229.553
0.031,-0.767,0.836,-204.224,80.933,246.948
0.306,-0.343,0.804,-177.429,84.961,234.497
0.486,0.097,0.914,-115.967,92.590,206.909
0.576,0.304,0.744,-64.209,120.300,166.748
0.598,0.340,0.386,-40.466,155.090,122.803
0.583,0.297,0.029,-28.931,176.514,87.097
0.589,0.277,-0.263,-12.695,181.824,61.462
0.677,0.205,-0.557,-17.456,183.105,37.659
0.715,0.072,-0.809,-31.006,178.223,15.808
0.819,0.047,-0.999,-37.292,164.185,5.615
0.864,0.124,-1.059,-46.326,147.522,-1.343
0.845,0.069,-1.084,-53.223,137.268,-19.531
0.731,-0.304,-1.160,-69.885,136.902,-49.438
0.609,-0.815,-1.466,-103.088,143.066,-72.754
0.514,-1.328,-1.467,-104.553,130.005,-67.871
0.490,-1.631,-1.495,-106.323,121.704,-36.804
0.400,-1.842,-1.650,-118.103,124.023,6.409
0.336,-1.771,-1.905,-130.432,124.146,64.697
0.292,-1.328,-1.986,-133.911,113.342,130.249
0.243,-0.694,-1.956,-129.456,97.412,183.228
0.144,-0.153,-2.019,-119.690,93.628,206.360
0.054,0.244,-2.159,-92.346,92.590,202.026
0.061,0.613,-2.297,-56.458,82.214,180.054
0.120,0.656,-2.244,-43.457,55.603,135.559
0.288,0.249,-2.076,-43.640,17.822,83.069
0.251,-0.333,-1.571,-60.974,-18.066,48.401
0.364,-0.726,-1.395,-60.120,-35.828,43.640
0.492,-0.890,-1.177,-53.894,-50.659,55.786
0.606,-1.160,-0.691,-74.341,-73.608,60.608
0.696,-1.390,-0.423,-82.031,-80.078,70.923
0.812,-1.319,-0.248,-62.622,-78.308,94.788
0.920,-1.138,0.052,-35.583,-84.656,116.882
0.917,-1.094,0.470,-17.029,-83.374,129.089
1.082,-0.844,0.279,-4.089,-55.115,141.052
1.018,-0.566,0.059,-17.883,-24.231,145.569
1.066,-0.494,-0.029,-12.024,-18.677,133.728
1.074,-0.529,0.032,-4.944,-16.296,114.502
1.054,-0.691,-0.046,-6.287,-3.845,94.116
1.009,-0.870,-0.244,-5.188,12.146,77.881
0.964,-0.975,-0.359,-1.465,17.517,70.435
0.906,-1.009,-0.365,5.920,13.977,69.275
0.893,-1.021,-0.459,10.071,14.587,71.838
0.885,-0.949,-0.580,18.311,15.503,77.698
0.854,-0.955,-0.580,1.831,8.789,82.153
0.871,-0.767,-0.540,-13.123,0.244,93.445
0.904,-0.560,-0.437,-21.973,-6.775,100.098
0.947,-0.333,-0.285,-24.719,-12.512,99.243
0.994,-0.143,-0.143,-25.879,-13.184,89.722
1.020,-0.023,-0.069,-25.391,-7.080,71.289
1.027,0.016,-0.056,-20.996,1.221,47.424
1.005,-0.081,-0.063,-15.930,7.874,21.606
0.971,-0.315,-0.101,-16.357,12.634,-1.404
0.932,-0.516,-0.108,-18.188,15.076,-14.038
0.910,-0.682,-0.110,-21.912,16.357,-16.479
0.891,-0.804,-0.114,-33.630,18.188,-13.306
0.873,-0.784,-0.114,-38.086,17.700,-4.272
0.859,-0.673,-0.127,-35.645,17.395,4.517
0.861,-0.580,-0.125,-34.119,16.663,7.751
0.851,-0.568,-0.104,-32.227,15.076,5.310
0.837,-0.607,-0.108,-28.809,14.893,1.038
0.837,-0.584,-0.110,-27.649,15.198,-0.366